File: processed/XJTU_all_cycles.csv
Cycle,Capacity_Ah,SoH,V_mean,V_std,t_sec,T_mean,File,Batch
1,1.991,1,3.69474,0.245208,17921,25.761,2C_battery-1,Batch-1
28,1.948,0.992359,3.6136,0.254683,3507,27.0358,2C_battery-1,Batch-1
55,1.962,0.999491,3.60216,0.262587,3531,26.2949,2C_battery-1,Batch-1
82,1.965,1,3.59671,0.266757,3536,26.3466,2C_battery-1,Batch-1
109,1.958,0.997453,3.5917,0.270095,3525,26.2434,2C_battery-1,Batch-1
136,1.95,0.993377,3.5908,0.269937,3510,26.5185,2C_battery-1,Batch-1
163,1.943,0.989812,3.59241,0.268804,3497,27.3291,2C_battery-1,Batch-1
190,1.927,0.981661,3.5867,0.270665,3468,26.6424,2C_battery-1,Batch-1
217,1.905,0.970453,3.57681,0.274531,3429,25.282,2C_battery-1,Batch-1
244,1.87,0.952624,3.55919,0.27934,3365,22.7846,2C_battery-1,Batch-1
271,1.846,0.940397,3.5507,0.282992,3322,22.1997,2C_battery-1,Batch-1
298,1.81,0.922058,3.53996,0.285883,3259,21.7145,2C_battery-1,Batch-1
325,1.757,0.895059,3.53255,0.287983,3162,21.915,2C_battery-1,Batch-1
352,1.702,0.86704,3.52749,0.290242,3064,22.5451,2C_battery-1,Batch-1
379,1.655,0.843097,3.52661,0.291064,2980,23.4816,2C_battery-1,Batch-1
16,1.92,0.979592,3.62091,0.2489,3456,26.9251,2C_battery-2,Batch-1
43,1.958,0.99898,3.60765,0.259286,3525,26.676,2C_battery-2,Batch-1
70,1.965,1,3.60049,0.265064,3538,26.5692,2C_battery-2,Batch-1
97,1.957,0.998469,3.59357,0.268844,3524,25.9324,2C_battery-2,Batch-1
124,1.952,0.995918,3.59114,0.270644,3514,26.2691,2C_battery-2,Batch-1
151,1.941,0.990306,3.59003,0.270011,3495,26.4335,2C_battery-2,Batch-1
178,1.932,0.985714,3.58958,0.270061,3477,26.8694,2C_battery-2,Batch-1
205,1.914,0.976531,3.58301,0.27235,3445,26.06,2C_battery-2,Batch-1
232,1.881,0.959694,3.56567,0.277675,3387,23.3969,2C_battery-2,Batch-1
259,1.852,0.944898,3.55413,0.280783,3334,22.0531,2C_battery-2,Batch-1
286,1.822,0.929592,3.5445,0.283639,3281,21.5133,2C_battery-2,Batch-1
313,1.793,0.914796,3.54184,0.284755,3228,22.1767,2C_battery-2,Batch-1
340,1.735,0.885204,3.53206,0.288314,3123,22.1583,2C_battery-2,Batch-1
367,1.679,0.856633,3.52861,0.289698,3023,22.8333,2C_battery-2,Batch-1
394,1.629,0.831122,3.51936,0.291858,2933,22.5814,2C_battery-2,Batch-1
14,1.912,0.976008,3.62102,0.247963,3443,26.955,2C_battery-3,Batch-1
41,1.956,0.998469,3.60761,0.258655,3521,26.7241,2C_battery-3,Batch-1
68,1.958,0.99949,3.59843,0.264069,3525,25.9497,2C_battery-3,Batch-1
95,1.954,0.997448,3.59303,0.268102,3517,25.8606,2C_battery-3,Batch-1
122,1.948,0.994385,3.59171,0.269571,3508,26.375,2C_battery-3,Batch-1
149,1.937,0.98877,3.59052,0.269232,3488,26.6237,2C_battery-3,Batch-1
176,1.927,0.983665,3.59003,0.268817,3470,27.0377,2C_battery-3,Batch-1
203,1.909,0.974477,3.58328,0.271318,3436,26.2133,2C_battery-3,Batch-1
230,1.875,0.957121,3.56742,0.276425,3376,23.8315,2C_battery-3,Batch-1
257,1.841,0.939765,3.55527,0.279969,3313,22.3365,2C_battery-3,Batch-1
284,1.806,0.921899,3.54449,0.283116,3251,21.7422,2C_battery-3,Batch-1
311,1.759,0.897907,3.5372,0.286595,3166,22.0662,2C_battery-3,Batch-1
338,1.696,0.865748,3.52772,0.288516,3052,21.9732,2C_battery-3,Batch-1
365,1.65,0.842266,3.52375,0.289705,2970,22.6843,2C_battery-3,Batch-1
392,1.609,0.821337,3.52136,0.292125,2896,23.4221,2C_battery-3,Batch-1
26,1.939,0.990802,3.61453,0.253892,3491,26.9802,2C_battery-4,Batch-1
53,1.956,0.999489,3.60311,0.261892,3522,26.3442,2C_battery-4,Batch-1
80,1.957,1,3.59659,0.266118,3523,26.1067,2C_battery-4,Batch-1
107,1.953,0.997956,3.59242,0.269368,3516,26.1815,2C_battery-4,Batch-1
134,1.948,0.995401,3.5896,0.271283,3507,26.3837,2C_battery-4,Batch-1
161,1.945,0.993868,3.59012,0.271344,3501,27.221,2C_battery-4,Batch-1
188,1.931,0.986714,3.5832,0.274326,3477,26.523,2C_battery-4,Batch-1
215,1.912,0.977006,3.57346,0.277605,3442,25.3154,2C_battery-4,Batch-1
242,1.875,0.958099,3.55357,0.284193,3376,22.7707,2C_battery-4,Batch-1
269,1.849,0.944813,3.54481,0.287277,3328,22.1301,2C_battery-4,Batch-1
296,1.814,0.926929,3.53312,0.290251,3267,21.7191,2C_battery-4,Batch-1
323,1.76,0.899336,3.52429,0.292532,3168,21.7537,2C_battery-4,Batch-1
350,1.693,0.8651,3.51898,0.293719,3047,22.4116,2C_battery-4,Batch-1
377,1.644,0.840061,3.51769,0.293986,2959,23.4132,2C_battery-4,Batch-1
8,1.921,0.977608,3.61857,0.249452,3459,26.5622,2C_battery-5,Batch-1
35,1.96,0.997455,3.60582,0.259688,3528,26.3526,2C_battery-5,Batch-1
62,1.963,0.998982,3.59794,0.265558,3534,25.8424,2C_battery-5,Batch-1
89,1.958,0.996438,3.59195,0.269263,3525,25.4345,2C_battery-5,Batch-1
116,1.949,0.991858,3.5865,0.272549,3509,25.1371,2C_battery-5,Batch-1
143,1.947,0.99084,3.58768,0.27288,3504,26.1674,2C_battery-5,Batch-1
170,1.94,0.987277,3.586,0.273841,3492,26.5586,2C_battery-5,Batch-1
197,1.925,0.979644,3.57981,0.276458,3465,25.9295,2C_battery-5,Batch-1
224,1.896,0.964885,3.56383,0.282128,3413,23.624,2C_battery-5,Batch-1
251,1.86,0.946565,3.5466,0.28728,3348,21.5591,2C_battery-5,Batch-1
278,1.835,0.933842,3.53896,0.28947,3303,21.3747,2C_battery-5,Batch-1
305,1.798,0.915013,3.53003,0.292742,3236,21.3747,2C_battery-5,Batch-1
332,1.741,0.886005,3.5185,0.296023,3134,21.1503,2C_battery-5,Batch-1
359,1.674,0.851908,3.51162,0.297069,3014,21.607,2C_battery-5,Batch-1
386,1.629,0.829008,3.50956,0.297969,2932,22.4719,2C_battery-5,Batch-1
10,1.922,0.978615,3.62007,0.248788,3459,25.8931,2C_battery-6,Batch-1
37,1.96,0.997963,3.60884,0.259291,3529,26.5233,2C_battery-6,Batch-1
64,1.961,0.998473,3.59887,0.266335,3531,25.8137,2C_battery-6,Batch-1
91,1.956,0.995927,3.59176,0.271483,3521,25.41,2C_battery-6,Batch-1
118,1.956,0.995927,3.58874,0.274323,3520,26.0909,2C_battery-6,Batch-1
145,1.95,0.992872,3.58631,0.276163,3510,26.316,2C_battery-6,Batch-1
172,1.944,0.989817,3.58483,0.276441,3499,26.735,2C_battery-6,Batch-1
199,1.927,0.981161,3.57878,0.278609,3470,26.0572,2C_battery-6,Batch-1
226,1.894,0.964358,3.5637,0.283503,3408,23.7356,2C_battery-6,Batch-1
253,1.855,0.944501,3.54831,0.288743,3340,21.7967,2C_battery-6,Batch-1
280,1.832,0.93279,3.5437,0.290291,3298,21.8716,2C_battery-6,Batch-1
307,1.8,0.916497,3.53477,0.29345,3240,21.6083,2C_battery-6,Batch-1
334,1.756,0.894094,3.52574,0.295609,3161,21.4291,2C_battery-6,Batch-1
361,1.701,0.86609,3.51907,0.296847,3061,21.8931,2C_battery-6,Batch-1
388,1.644,0.837067,3.51731,0.297432,2961,22.9746,2C_battery-6,Batch-1
7,1.95,0.989346,3.61245,0.252206,3511,27.0602,2C_battery-7,Batch-1
34,1.97,0.999493,3.60262,0.261064,3547,26.903,2C_battery-7,Batch-1
61,1.967,0.997971,3.59564,0.266143,3542,26.3792,2C_battery-7,Batch-1
88,1.959,0.993912,3.58928,0.269454,3527,25.8247,2C_battery-7,Batch-1
115,1.947,0.987823,3.58478,0.271668,3506,25.529,2C_battery-7,Batch-1
142,1.944,0.986301,3.58763,0.270686,3500,26.753,2C_battery-7,Batch-1
169,1.936,0.982243,3.58672,0.271004,3484,27.1012,2C_battery-7,Batch-1
196,1.921,0.974632,3.58065,0.273427,3459,26.5119,2C_battery-7,Batch-1
223,1.894,0.960934,3.5659,0.278495,3409,24.3093,2C_battery-7,Batch-1
250,1.859,0.943176,3.54936,0.28332,3347,22.222,2C_battery-7,Batch-1
277,1.833,0.929985,3.54212,0.286077,3300,21.9672,2C_battery-7,Batch-1
304,1.799,0.912735,3.53314,0.289141,3238,21.7601,2C_battery-7,Batch-1
331,1.74,0.882801,3.52303,0.292088,3132,21.7717,2C_battery-7,Batch-1
358,1.684,0.854389,3.51617,0.294028,3031,22.1676,2C_battery-7,Batch-1
385,1.631,0.827499,3.5137,0.294718,2937,23.0306,2C_battery-7,Batch-1
10,1.912,0.980513,3.61451,0.250471,3442,26.5811,2C_battery-8,Batch-1
37,1.945,0.997436,3.60507,0.258186,3501,26.495,2C_battery-8,Batch-1
64,1.951,1,3.59555,0.264594,3513,25.7084,2C_battery-8,Batch-1
91,1.95,1,3.58909,0.268822,3510,25.3353,2C_battery-8,Batch-1
118,1.948,0.998974,3.58508,0.270742,3506,25.5369,2C_battery-8,Batch-1
145,1.946,0.997949,3.58481,0.272071,3503,26.4404,2C_battery-8,Batch-1
172,1.937,0.993333,3.58252,0.272745,3487,26.6075,2C_battery-8,Batch-1
199,1.922,0.985641,3.57633,0.27471,3459,25.9501,2C_battery-8,Batch-1
226,1.892,0.970256,3.56035,0.279215,3405,23.5787,2C_battery-8,Batch-1
253,1.859,0.953333,3.54409,0.283536,3347,21.6141,2C_battery-8,Batch-1
280,1.836,0.941538,3.53825,0.286184,3305,21.4492,2C_battery-8,Batch-1
307,1.811,0.928718,3.53287,0.285618,3260,21.4337,2C_battery-8,Batch-1
334,1.779,0.912308,3.52514,0.288154,3201,21.3186,2C_battery-8,Batch-1
361,1.753,0.898974,3.52628,0.288149,3156,22.4067,2C_battery-8,Batch-1
388,1.698,0.870769,3.51735,0.290961,3057,22.5099,2C_battery-8,Batch-1
415,1.615,0.828205,3.50547,0.29238,2908,22.4804,2C_battery-8,Batch-1
22,1.945,0.991841,3.61388,0.254204,3647,27.3902,3C_battery-1,Batch-2
49,1.96,0.99949,3.60252,0.26178,3527,26.7457,3C_battery-1,Batch-2
76,1.954,0.99643,3.59735,0.265131,3518,26.6932,3C_battery-1,Batch-2
103,1.937,0.987761,3.5924,0.266693,3487,26.1725,3C_battery-1,Batch-2
130,1.922,0.980112,3.59157,0.266791,3460,26.5302,3C_battery-1,Batch-2
157,1.907,0.972463,3.59096,0.266853,3433,27.0746,3C_battery-1,Batch-2
184,1.893,0.965324,3.59053,0.267387,3408,27.6542,3C_battery-1,Batch-2
211,1.866,0.951555,3.58295,0.269684,3360,27.0714,3C_battery-1,Batch-2
238,1.825,0.930648,3.57093,0.273556,3285,25.7565,3C_battery-1,Batch-2
265,1.744,0.889342,3.54724,0.27915,3140,23.3685,3C_battery-1,Batch-2
292,1.636,0.834268,3.53233,0.282246,2945,22.7001,3C_battery-1,Batch-2
20,1.894,0.986458,3.60112,0.255581,3409,21.9912,3C_battery-10,Batch-2
47,1.921,1,3.59431,0.26352,3457,22.5797,3C_battery-10,Batch-2
74,1.901,0.990104,3.59232,0.26325,3421,22.6458,3C_battery-10,Batch-2
101,1.866,0.971875,3.59175,0.262013,3359,23.0022,3C_battery-10,Batch-2
128,1.8,0.9375,3.58598,0.264278,3241,23.0997,3C_battery-10,Batch-2
155,1.675,0.872396,3.57372,0.266842,3014,23.2804,3C_battery-10,Batch-2
18,1.881,0.984817,3.59725,0.255483,3387,21.8166,3C_battery-11,Batch-2
45,1.904,0.996859,3.59039,0.263025,3427,22.2654,3C_battery-11,Batch-2
72,1.875,0.981675,3.59118,0.261468,3375,22.6821,3C_battery-11,Batch-2
99,1.814,0.949738,3.59165,0.258942,3265,23.2547,3C_battery-11,Batch-2
126,1.652,0.864921,3.57571,0.263951,2974,23.2016,3C_battery-11,Batch-2
22,1.89,0.985401,3.60424,0.254383,3402,22.6666,3C_battery-12,Batch-2
49,1.918,1,3.59457,0.263918,3452,22.6579,3C_battery-12,Batch-2
76,1.911,0.99635,3.59068,0.266206,3440,22.8753,3C_battery-12,Batch-2
103,1.893,0.986966,3.59011,0.265426,3408,23.2297,3C_battery-12,Batch-2
130,1.869,0.974453,3.58809,0.264597,3365,23.3532,3C_battery-12,Batch-2
157,1.833,0.955683,3.58308,0.266244,3298,23.2294,3C_battery-12,Batch-2
184,1.755,0.915016,3.57106,0.270085,3160,22.4705,3C_battery-12,Batch-2
211,1.606,0.837331,3.55628,0.272516,2891,22.4891,3C_battery-12,Batch-2
26,1.899,0.987006,3.59962,0.255778,3417,22.3032,3C_battery-13,Batch-2
53,1.924,1,3.59134,0.263742,3463,22.6838,3C_battery-13,Batch-2
80,1.917,0.996362,3.58579,0.266877,3451,22.5789,3C_battery-13,Batch-2
107,1.902,0.988565,3.58451,0.267418,3423,22.9372,3C_battery-13,Batch-2
134,1.88,0.977131,3.5816,0.269304,3384,22.9267,3C_battery-13,Batch-2
161,1.847,0.959979,3.57748,0.269968,3325,22.9164,3C_battery-13,Batch-2
188,1.78,0.925156,3.56797,0.270477,3203,22.4157,3C_battery-13,Batch-2
215,1.662,0.863825,3.55681,0.273127,2992,22.2251,3C_battery-13,Batch-2
16,1.868,0.980577,3.5984,0.253403,3362,21.5574,3C_battery-14,Batch-2
43,1.903,0.99895,3.58905,0.264233,3426,21.8694,3C_battery-14,Batch-2
70,1.884,0.988976,3.58649,0.263808,3392,21.8132,3C_battery-14,Batch-2
97,1.846,0.969029,3.5861,0.263112,3323,22.0991,3C_battery-14,Batch-2
124,1.76,0.923885,3.5802,0.263659,3168,22.5936,3C_battery-14,Batch-2
4,1.805,0.951001,3.60388,0.245611,3249,21.1404,3C_battery-15,Batch-2
31,1.888,0.994731,3.59305,0.260854,3397,21.508,3C_battery-15,Batch-2
58,1.889,0.995258,3.58829,0.264395,3400,21.628,3C_battery-15,Batch-2
85,1.864,0.982086,3.58773,0.263082,3355,21.7731,3C_battery-15,Batch-2
112,1.822,0.959958,3.58659,0.263058,3280,22.1371,3C_battery-15,Batch-2
139,1.749,0.921496,3.58008,0.264426,3148,22.3293,3C_battery-15,Batch-2
166,1.613,0.849842,3.56941,0.266738,2904,22.4494,3C_battery-15,Batch-2
25,1.968,0.993438,3.6157,0.254959,3543,27.3658,3C_battery-2,Batch-2
52,1.984,1,3.60746,0.261595,3571,27.3389,3C_battery-2,Batch-2
79,1.973,0.995962,3.60171,0.263315,3552,26.7115,3C_battery-2,Batch-2
106,1.951,0.984856,3.59791,0.263926,3513,26.0345,3C_battery-2,Batch-2
133,1.933,0.97577,3.59802,0.263425,3480,26.4868,3C_battery-2,Batch-2
160,1.915,0.966683,3.59695,0.263988,3447,26.9034,3C_battery-2,Batch-2
187,1.899,0.958607,3.59595,0.264497,3419,27.3556,3C_battery-2,Batch-2
214,1.872,0.944977,3.58948,0.267048,3370,26.6242,3C_battery-2,Batch-2
241,1.824,0.920747,3.5743,0.271913,3284,24.558,3C_battery-2,Batch-2
268,1.735,0.87582,3.55585,0.276471,3122,22.6454,3C_battery-2,Batch-2
3,1.882,0.954845,3.62816,0.243154,3388,27.6141,3C_battery-3,Batch-2
30,1.962,0.995434,3.61175,0.25559,3531,27.6705,3C_battery-3,Batch-2
57,1.972,1,3.60094,0.26316,3549,27.0013,3C_battery-3,Batch-2
84,1.968,0.998478,3.59549,0.266952,3544,26.8729,3C_battery-3,Batch-2
111,1.952,0.99036,3.58882,0.269262,3515,26.2637,3C_battery-3,Batch-2
138,1.938,0.983257,3.58699,0.271115,3488,26.8067,3C_battery-3,Batch-2
165,1.92,0.974125,3.58439,0.273602,3457,27.2735,3C_battery-3,Batch-2
192,1.903,0.9655,3.58186,0.277275,3427,27.874,3C_battery-3,Batch-2
219,1.86,0.943683,3.56932,0.279977,3347,26.9716,3C_battery-3,Batch-2
246,1.751,0.888382,3.54251,0.28511,3152,24.6834,3C_battery-3,Batch-2
273,1.644,0.834094,3.51805,0.288719,2959,23.1979,3C_battery-3,Batch-2
14,1.919,0.981084,3.62015,0.250132,3454,27.2082,3C_battery-4,Batch-2
41,1.957,1,3.60785,0.259338,3522,27.2768,3C_battery-4,Batch-2
68,1.951,0.997444,3.60071,0.264198,3512,26.7559,3C_battery-4,Batch-2
95,1.935,0.989264,3.59653,0.265135,3483,26.4214,3C_battery-4,Batch-2
122,1.913,0.978016,3.59326,0.266067,3443,26.1319,3C_battery-4,Batch-2
149,1.896,0.969325,3.59323,0.265282,3413,26.5901,3C_battery-4,Batch-2
176,1.883,0.962679,3.59422,0.266114,3389,27.609,3C_battery-4,Batch-2
203,1.861,0.951431,3.5882,0.268667,3349,26.9469,3C_battery-4,Batch-2
230,1.834,0.937628,3.57974,0.270918,3302,26.1558,3C_battery-4,Batch-2
257,1.783,0.911554,3.5603,0.276667,3210,23.3665,3C_battery-4,Batch-2
284,1.727,0.882924,3.54673,0.280723,3108,22.379,3C_battery-4,Batch-2
311,1.643,0.83998,3.53785,0.284632,2958,22.6067,3C_battery-4,Batch-2
16,1.934,0.984725,3.61633,0.251529,3481,27.2351,3C_battery-5,Batch-2
43,1.964,1,3.60442,0.261155,3535,27.036,3C_battery-5,Batch-2
70,1.957,0.996436,3.59728,0.265049,3523,26.4042,3C_battery-5,Batch-2
97,1.942,0.988798,3.59315,0.265577,3495,26.0112,3C_battery-5,Batch-2
124,1.923,0.979124,3.59037,0.266307,3461,25.895,3C_battery-5,Batch-2
151,1.906,0.970468,3.58968,0.265669,3431,26.3457,3C_battery-5,Batch-2
178,1.892,0.96334,3.59073,0.26583,3406,27.4486,3C_battery-5,Batch-2
205,1.867,0.950611,3.58409,0.268352,3360,26.8203,3C_battery-5,Batch-2
232,1.827,0.930244,3.57347,0.272248,3289,25.7062,3C_battery-5,Batch-2
259,1.742,0.886965,3.54953,0.277856,3135,23.1909,3C_battery-5,Batch-2
286,1.646,0.838086,3.53442,0.281872,2962,22.4049,3C_battery-5,Batch-2
16,1.928,0.98217,3.61942,0.249756,3469,27.0249,3C_battery-6,Batch-2
43,1.963,1,3.60685,0.260574,3533,26.8434,3C_battery-6,Batch-2
70,1.957,0.996943,3.5992,0.26472,3523,26.2812,3C_battery-6,Batch-2
97,1.944,0.990321,3.59473,0.266331,3499,26.1532,3C_battery-6,Batch-2
124,1.927,0.981661,3.59032,0.269125,3468,25.9958,3C_battery-6,Batch-2
151,1.914,0.975038,3.58788,0.27075,3445,26.3161,3C_battery-6,Batch-2
178,1.905,0.970453,3.58743,0.271552,3429,27.1177,3C_battery-6,Batch-2
205,1.886,0.960774,3.58034,0.273841,3395,26.6484,3C_battery-6,Batch-2
232,1.86,0.947529,3.57107,0.27697,3350,25.863,3C_battery-6,Batch-2
259,1.812,0.923077,3.54837,0.283731,3262,23.02,3C_battery-6,Batch-2
286,1.752,0.892511,3.53505,0.285787,3153,22.2313,3C_battery-6,Batch-2
313,1.646,0.838512,3.51998,0.288241,2962,21.5064,3C_battery-6,Batch-2
18,1.938,0.982759,3.62212,0.247692,3489,27.0051,3C_battery-7,Batch-2
45,1.972,1,3.60894,0.258005,3549,26.7138,3C_battery-7,Batch-2
72,1.972,1,3.5998,0.264966,3550,25.9917,3C_battery-7,Batch-2
99,1.966,0.996957,3.59402,0.268815,3538,25.8783,3C_battery-7,Batch-2
126,1.951,0.989351,3.5897,0.270819,3512,25.8017,3C_battery-7,Batch-2
153,1.935,0.981237,3.58835,0.270655,3483,26.2033,3C_battery-7,Batch-2
180,1.918,0.972617,3.58818,0.271471,3452,27.0412,3C_battery-7,Batch-2
207,1.889,0.957911,3.58127,0.275719,3400,26.5491,3C_battery-7,Batch-2
234,1.847,0.936613,3.57004,0.279352,3325,25.663,3C_battery-7,Batch-2
261,1.77,0.897566,3.5466,0.284249,3186,23.0295,3C_battery-7,Batch-2
288,1.693,0.858519,3.53126,0.287962,3048,22.035,3C_battery-7,Batch-2
315,1.605,0.813895,3.51836,0.290841,2889,21.3095,3C_battery-7,Batch-2
23,1.946,0.99134,3.61294,0.254397,3503,26.7308,3C_battery-8,Batch-2
50,1.962,0.999491,3.60267,0.261548,3531,26.1738,3C_battery-8,Batch-2
77,1.953,0.994906,3.59875,0.264052,3516,26.1569,3C_battery-8,Batch-2
104,1.934,0.985227,3.59445,0.265063,3481,25.5663,3C_battery-8,Batch-2
131,1.918,0.977076,3.5942,0.26508,3453,26.1115,3C_battery-8,Batch-2
158,1.899,0.967397,3.59152,0.266333,3418,26.1122,3C_battery-8,Batch-2
185,1.882,0.958737,3.59097,0.266643,3388,26.7126,3C_battery-8,Batch-2
212,1.852,0.943454,3.5845,0.268115,3333,26.1541,3C_battery-8,Batch-2
239,1.789,0.91136,3.57078,0.272195,3221,24.5856,3C_battery-8,Batch-2
266,1.634,0.832399,3.54576,0.275916,2942,22.3591,3C_battery-8,Batch-2
23,1.897,0.986479,3.60285,0.25511,3414,22.2625,3C_battery-9,Batch-2
50,1.924,1,3.5937,0.263323,3463,22.5744,3C_battery-9,Batch-2
77,1.919,0.99792,3.58863,0.266834,3454,22.673,3C_battery-9,Batch-2
104,1.906,0.99116,3.58624,0.268487,3430,23.0027,3C_battery-9,Batch-2
131,1.889,0.982319,3.58268,0.269213,3401,23.0988,3C_battery-9,Batch-2
158,1.869,0.971919,3.57833,0.271378,3365,23.0992,3C_battery-9,Batch-2
185,1.842,0.957878,3.57,0.273421,3315,22.4342,3C_battery-9,Batch-2
212,1.806,0.939158,3.56321,0.275293,3250,22.2406,3C_battery-9,Batch-2
239,1.759,0.914717,3.56021,0.275828,3166,22.9149,3C_battery-9,Batch-2
266,1.683,0.875195,3.5521,0.276723,3030,22.915,3C_battery-9,Batch-2
6,1.93,0.961155,3.40851,0.218615,695,38.7092,R2.5_battery-1,Batch-3
33,1.968,0.98008,3.61119,0.256103,3543,26.9273,R2.5_battery-1,Batch-3
60,1.979,0.985558,3.47745,0.249573,1187,32.2905,R2.5_battery-1,Batch-3
87,2.001,0.996514,3.64317,0.26122,7205,25.0294,R2.5_battery-1,Batch-3
114,1.958,0.9751,3.51751,0.264686,1762,28.1428,R2.5_battery-1,Batch-3
141,1.995,0.993526,3.3704,0.224154,718,38.4014,R2.5_battery-1,Batch-3
168,1.958,0.9751,3.58991,0.269087,3526,26.2091,R2.5_battery-1,Batch-3
195,1.963,0.97759,3.45911,0.254143,1178,33.2607,R2.5_battery-1,Batch-3
222,1.966,0.979084,3.63582,0.265162,7076,25.2797,R2.5_battery-1,Batch-3
249,1.919,0.955677,3.49255,0.268652,1727,27.3325,R2.5_battery-1,Batch-3
276,1.942,0.967131,3.32562,0.213568,700,35.4268,R2.5_battery-1,Batch-3
303,1.88,0.936255,3.55176,0.280492,3384,21.6005,R2.5_battery-1,Batch-3
330,1.884,0.938247,3.40295,0.251,1130,28.1557,R2.5_battery-1,Batch-3
357,1.88,0.936255,3.60899,0.277209,6767,20.3583,R2.5_battery-1,Batch-3
384,1.848,0.920319,3.45994,0.27344,1663,25.8845,R2.5_battery-1,Batch-3
411,1.867,0.929781,3.3011,0.213409,673,36.4081,R2.5_battery-1,Batch-3
438,1.813,0.902888,3.53874,0.285744,3263,22.9767,R2.5_battery-1,Batch-3
465,1.779,0.885956,3.38191,0.254737,1066,30.2882,R2.5_battery-1,Batch-3
492,1.764,0.878486,3.59528,0.283676,6351,21.7272,R2.5_battery-1,Batch-3
519,1.688,0.840637,3.42989,0.277741,1520,27.2464,R2.5_battery-1,Batch-3
546,1.669,0.831175,3.25246,0.207128,601,37.659,R2.5_battery-1,Batch-3
573,1.607,0.800299,3.50289,0.29448,2893,23.0693,R2.5_battery-1,Batch-3
8,1.904,0.94868,3.62505,0.244942,3428,27.0896,R2.5_battery-2,Batch-3
35,1.969,0.981066,3.48721,0.248046,1182,33.259,R2.5_battery-2,Batch-3
62,2.006,0.999502,3.64707,0.25786,7221,25.4271,R2.5_battery-2,Batch-3
89,1.966,0.979571,3.52698,0.262803,1770,29.1973,R2.5_battery-2,Batch-3
116,1.996,0.994519,3.37431,0.227748,719,38.7994,R2.5_battery-2,Batch-3
143,1.963,0.978077,3.59426,0.266571,3534,26.351,R2.5_battery-2,Batch-3
170,1.967,0.98007,3.46778,0.253484,1180,34.0438,R2.5_battery-2,Batch-3
197,1.973,0.983059,3.64105,0.261652,7102,25.7603,R2.5_battery-2,Batch-3
224,1.935,0.964126,3.51008,0.266527,1741,29.285,R2.5_battery-2,Batch-3
251,1.951,0.972098,3.34133,0.217641,702,37.1254,R2.5_battery-2,Batch-3
278,1.891,0.942202,3.56102,0.277753,3404,22.2197,R2.5_battery-2,Batch-3
305,1.891,0.942202,3.4133,0.253737,1135,28.9631,R2.5_battery-2,Batch-3
332,1.884,0.938714,3.61527,0.273882,6782,20.5053,R2.5_battery-2,Batch-3
359,1.846,0.919781,3.46102,0.273654,1662,25.1786,R2.5_battery-2,Batch-3
386,1.857,0.925262,3.30344,0.213217,668,36.2129,R2.5_battery-2,Batch-3
413,1.809,0.901345,3.54699,0.281726,3256,23.5084,R2.5_battery-2,Batch-3
440,1.77,0.881913,3.38805,0.254963,1062,30.8294,R2.5_battery-2,Batch-3
467,1.75,0.871948,3.60058,0.278714,6302,22.0394,R2.5_battery-2,Batch-3
494,1.666,0.830095,3.43161,0.27713,1500,27.3828,R2.5_battery-2,Batch-3
521,1.637,0.815645,3.25047,0.20532,589,37.9485,R2.5_battery-2,Batch-3
548,1.578,0.786248,3.51043,0.291488,2841,23.806,R2.5_battery-2,Batch-3
23,1.959,0.97657,3.61834,0.252096,3526,26.9485,R2.5_battery-3,Batch-3
50,1.977,0.985543,3.48437,0.252244,1187,32.1221,R2.5_battery-3,Batch-3
77,2.005,0.999501,3.64919,0.256479,7218,25.2403,R2.5_battery-3,Batch-3
104,1.965,0.979561,3.52826,0.264004,1770,28.5564,R2.5_battery-3,Batch-3
131,1.989,0.991525,3.38023,0.231311,716,38.1128,R2.5_battery-3,Batch-3
158,1.969,0.981555,3.59935,0.265403,3544,26.7142,R2.5_battery-3,Batch-3
185,1.966,0.98006,3.46982,0.256746,1180,33.1581,R2.5_battery-3,Batch-3
212,1.975,0.984546,3.64178,0.262174,7111,25.3231,R2.5_battery-3,Batch-3
239,1.936,0.965105,3.50793,0.268127,1742,27.9807,R2.5_battery-3,Batch-3
266,1.942,0.968096,3.34204,0.220996,699,34.8177,R2.5_battery-3,Batch-3
293,1.9,0.947159,3.56411,0.277375,3419,21.8984,R2.5_battery-3,Batch-3
320,1.896,0.945165,3.41745,0.257012,1138,28.2606,R2.5_battery-3,Batch-3
347,1.897,0.945663,3.61709,0.273013,6830,20.3888,R2.5_battery-3,Batch-3
374,1.867,0.930708,3.47204,0.275765,1681,25.7576,R2.5_battery-3,Batch-3
401,1.881,0.937687,3.32195,0.218658,677,35.1823,R2.5_battery-3,Batch-3
428,1.855,0.924726,3.55211,0.283704,3340,22.8355,R2.5_battery-3,Batch-3
455,1.848,0.921236,3.40219,0.259782,1109,29.1788,R2.5_battery-3,Batch-3
482,1.854,0.924227,3.61013,0.277323,6675,21.7839,R2.5_battery-3,Batch-3
509,1.819,0.90678,3.45411,0.28066,1638,26.7278,R2.5_battery-3,Batch-3
536,1.811,0.902792,3.29702,0.216923,652,36.5141,R2.5_battery-3,Batch-3
563,1.776,0.885344,3.52326,0.292813,3197,22.3452,R2.5_battery-3,Batch-3
590,1.735,0.864905,3.36002,0.259845,1041,29.3315,R2.5_battery-3,Batch-3
617,1.718,0.856431,3.58678,0.284541,6183,21.1246,R2.5_battery-3,Batch-3
644,1.627,0.811067,3.40337,0.284335,1465,26.2623,R2.5_battery-3,Batch-3
4,1.9,0.941526,3.57035,0.238375,1711,32.9844,R2.5_battery-4,Batch-3
31,2.017,0.999504,3.40447,0.226459,727,41.2033,R2.5_battery-4,Batch-3
58,1.97,0.976214,3.60035,0.262193,3547,26.2219,R2.5_battery-4,Batch-3
85,1.983,0.982656,3.47529,0.249023,1190,32.939,R2.5_battery-4,Batch-3
112,1.98,0.981169,3.6394,0.26164,7131,24.2167,R2.5_battery-4,Batch-3
139,1.953,0.96779,3.51911,0.263677,1758,29.1279,R2.5_battery-4,Batch-3
166,1.984,0.983152,3.37729,0.224529,715,39.7118,R2.5_battery-4,Batch-3
193,1.945,0.963826,3.59158,0.266344,3502,26.8587,R2.5_battery-4,Batch-3
220,1.946,0.964321,3.45617,0.252319,1168,32.5576,R2.5_battery-4,Batch-3
247,1.933,0.957879,3.62998,0.265408,6960,23.126,R2.5_battery-4,Batch-3
274,1.888,0.93558,3.48139,0.267327,1699,25.2025,R2.5_battery-4,Batch-3
301,1.918,0.950446,3.32873,0.21232,691,34.9237,R2.5_battery-4,Batch-3
328,1.852,0.91774,3.55121,0.277922,3333,20.9062,R2.5_battery-4,Batch-3
355,1.859,0.921209,3.407,0.251594,1116,28.0836,R2.5_battery-4,Batch-3
382,1.853,0.918236,3.6117,0.274321,6674,20.6691,R2.5_battery-4,Batch-3
409,1.817,0.900396,3.46082,0.273909,1636,25.5102,R2.5_battery-4,Batch-3
436,1.821,0.902379,3.29944,0.21413,656,35.486,R2.5_battery-4,Batch-3
463,1.759,0.871655,3.53744,0.284342,3167,23.055,R2.5_battery-4,Batch-3
490,1.703,0.843905,3.37474,0.254765,1022,29.5728,R2.5_battery-4,Batch-3
517,1.683,0.833994,3.59347,0.279934,6060,21.6897,R2.5_battery-4,Batch-3
544,1.592,0.7889,3.41756,0.278359,1434,26.8121,R2.5_battery-4,Batch-3
14,1.902,0.949102,3.5535,0.246433,1712,29.5531,R2.5_battery-5,Batch-3
41,2.002,0.999002,3.38983,0.23037,721,38.1933,R2.5_battery-5,Batch-3
68,1.975,0.985529,3.60052,0.263336,3555,26.1189,R2.5_battery-5,Batch-3
95,1.975,0.985529,3.46591,0.256244,1186,31.6587,R2.5_battery-5,Batch-3
122,1.992,0.994012,3.63976,0.262618,7171,24.5768,R2.5_battery-5,Batch-3
149,1.956,0.976048,3.51669,0.267491,1761,29.1911,R2.5_battery-5,Batch-3
176,1.99,0.993014,3.36733,0.229148,716,38.7263,R2.5_battery-5,Batch-3
203,1.955,0.975549,3.58631,0.271969,3519,26.5504,R2.5_battery-5,Batch-3
230,1.948,0.972056,3.4424,0.258435,1169,31.4921,R2.5_battery-5,Batch-3
257,1.937,0.966567,3.61951,0.273236,6973,21.636,R2.5_battery-5,Batch-3
284,1.891,0.943613,3.46812,0.276261,1702,24.9858,R2.5_battery-5,Batch-3
311,1.919,0.957585,3.30992,0.21461,691,34.0684,R2.5_battery-5,Batch-3
338,1.866,0.931138,3.54365,0.285875,3359,21.8384,R2.5_battery-5,Batch-3
365,1.863,0.929641,3.39174,0.261143,1118,28.4354,R2.5_battery-5,Batch-3
392,1.863,0.929641,3.60109,0.28335,6705,20.7938,R2.5_battery-5,Batch-3
419,1.812,0.904192,3.44339,0.282781,1631,26.113,R2.5_battery-5,Batch-3
446,1.799,0.897705,3.27983,0.215554,648,36.1099,R2.5_battery-5,Batch-3
473,1.741,0.868762,3.51951,0.295395,3134,22.9984,R2.5_battery-5,Batch-3
500,1.687,0.841816,3.35265,0.262351,1012,30.5406,R2.5_battery-5,Batch-3
527,1.666,0.831337,3.57909,0.291492,5999,21.8962,R2.5_battery-5,Batch-3
554,1.569,0.782934,3.38914,0.28747,1413,26.8021,R2.5_battery-5,Batch-3
19,1.918,0.95996,3.54556,0.250794,1726,29.3203,R2.5_battery-6,Batch-3
46,1.998,1,3.38338,0.232895,719,37.4461,R2.5_battery-6,Batch-3
73,1.964,0.982983,3.5974,0.264189,3536,25.6508,R2.5_battery-6,Batch-3
100,1.962,0.981982,3.46204,0.256555,1177,30.9839,R2.5_battery-6,Batch-3
127,1.973,0.987487,3.64083,0.260139,7101,24.3799,R2.5_battery-6,Batch-3
154,1.94,0.970971,3.51491,0.267129,1746,28.5172,R2.5_battery-6,Batch-3
181,1.969,0.985485,3.36618,0.229936,709,38.1435,R2.5_battery-6,Batch-3
208,1.932,0.966967,3.5889,0.267939,3478,26.1585,R2.5_battery-6,Batch-3
235,1.924,0.962963,3.44109,0.257651,1155,30.5896,R2.5_battery-6,Batch-3
262,1.909,0.955455,3.6232,0.268805,6871,21.2091,R2.5_battery-6,Batch-3
289,1.866,0.933934,3.47174,0.271284,1679,24.729,R2.5_battery-6,Batch-3
316,1.893,0.947447,3.31443,0.218075,682,33.96,R2.5_battery-6,Batch-3
343,1.838,0.91992,3.55068,0.280266,3308,21.5871,R2.5_battery-6,Batch-3
370,1.831,0.916416,3.39494,0.256981,1099,27.607,R2.5_battery-6,Batch-3
397,1.834,0.917918,3.61097,0.275998,6603,21.3621,R2.5_battery-6,Batch-3
424,1.781,0.891391,3.4518,0.278267,1604,25.7285,R2.5_battery-6,Batch-3
451,1.761,0.881381,3.28078,0.215583,634,35.1687,R2.5_battery-6,Batch-3
478,1.704,0.852853,3.52909,0.28842,3066,22.9834,R2.5_battery-6,Batch-3
505,1.643,0.822322,3.35856,0.258255,986,29.7674,R2.5_battery-6,Batch-3
532,1.616,0.808809,3.59034,0.281656,5817,22.0477,R2.5_battery-6,Batch-3
17,1.971,0.987475,3.65505,0.25013,7097,25.7313,R2.5_battery-7,Batch-3
44,1.951,0.977455,3.5329,0.258638,1756,29.2273,R2.5_battery-7,Batch-3
71,1.994,0.998998,3.37745,0.230055,718,38.3139,R2.5_battery-7,Batch-3
98,1.958,0.980962,3.59276,0.26662,3524,25.5968,R2.5_battery-7,Batch-3
125,1.957,0.980461,3.45609,0.255669,1175,31.3994,R2.5_battery-7,Batch-3
152,1.968,0.985972,3.63893,0.261586,7086,24.7544,R2.5_battery-7,Batch-3
179,1.941,0.972445,3.51383,0.267385,1746,29.6596,R2.5_battery-7,Batch-3
206,1.96,0.981964,3.35723,0.226722,706,38.1584,R2.5_battery-7,Batch-3
233,1.923,0.963427,3.57828,0.272253,3461,25.2307,R2.5_battery-7,Batch-3
260,1.904,0.953908,3.41748,0.255967,1143,29.0232,R2.5_battery-7,Batch-3
287,1.894,0.948898,3.61622,0.270495,6818,20.371,R2.5_battery-7,Batch-3
314,1.856,0.92986,3.46439,0.274642,1671,24.8734,R2.5_battery-7,Batch-3
341,1.875,0.939379,3.30891,0.216004,676,34.7141,R2.5_battery-7,Batch-3
368,1.827,0.915331,3.54442,0.281503,3289,21.6581,R2.5_battery-7,Batch-3
395,1.822,0.912826,3.39265,0.258759,1093,28.6369,R2.5_battery-7,Batch-3
422,1.819,0.911323,3.60938,0.275045,6550,21.4638,R2.5_battery-7,Batch-3
449,1.765,0.884269,3.44465,0.278832,1589,26.2572,R2.5_battery-7,Batch-3
476,1.721,0.862224,3.27105,0.214277,620,36.0507,R2.5_battery-7,Batch-3
503,1.653,0.828156,3.52439,0.28852,2976,23.626,R2.5_battery-7,Batch-3
3,1.872,0.934598,3.62304,0.244511,3370,26.7624,R2.5_battery-8,Batch-3
30,1.964,0.980529,3.48814,0.246292,1178,32.1924,R2.5_battery-8,Batch-3
57,1.998,0.997504,3.64672,0.257313,7193,24.928,R2.5_battery-8,Batch-3
84,1.962,0.979531,3.52659,0.263222,1766,28.5177,R2.5_battery-8,Batch-3
111,1.99,0.99351,3.37548,0.224733,717,36.9445,R2.5_battery-8,Batch-3
138,1.96,0.978532,3.59378,0.266494,3529,25.7731,R2.5_battery-8,Batch-3
165,1.962,0.979531,3.46326,0.253466,1178,31.7482,R2.5_battery-8,Batch-3
192,1.972,0.984523,3.64194,0.260263,7098,25.6113,R2.5_battery-8,Batch-3
219,1.94,0.968547,3.51287,0.266688,1746,28.6154,R2.5_battery-8,Batch-3
246,1.955,0.976036,3.35155,0.220413,704,36.1832,R2.5_battery-8,Batch-3
273,1.897,0.947079,3.56426,0.275192,3415,21.7158,R2.5_battery-8,Batch-3
300,1.898,0.947579,3.41924,0.252263,1139,27.5647,R2.5_battery-8,Batch-3
327,1.884,0.940589,3.61518,0.271166,6781,19.4809,R2.5_battery-8,Batch-3
354,1.854,0.925612,3.46449,0.273242,1669,24.0235,R2.5_battery-8,Batch-3
381,1.877,0.937094,3.30968,0.216967,676,33.486,R2.5_battery-8,Batch-3
408,1.84,0.918622,3.55273,0.279124,3312,22.1418,R2.5_battery-8,Batch-3
435,1.835,0.916126,3.39914,0.258727,1102,28.1918,R2.5_battery-8,Batch-3
462,1.838,0.917624,3.61194,0.274027,6618,21.4024,R2.5_battery-8,Batch-3
489,1.802,0.899651,3.45392,0.276727,1622,25.756,R2.5_battery-8,Batch-3
516,1.801,0.899151,3.29039,0.21421,648,35.2695,R2.5_battery-8,Batch-3
543,1.752,0.874688,3.5313,0.286884,3153,22.6728,R2.5_battery-8,Batch-3
570,1.687,0.842237,3.35676,0.256417,1012,28.7842,R2.5_battery-8,Batch-3
597,1.654,0.825761,3.58774,0.2825,5953,21.1903,R2.5_battery-8,Batch-3
7,1.892,0.961382,3.62728,0.244369,3406,26.9752,R3_battery-1,Batch-4
34,1.895,0.962907,3.56612,0.223673,1706,29.3215,R3_battery-1,Batch-4
61,1.972,1,3.60604,0.260066,3550,26.3301,R3_battery-1,Batch-4
88,1.904,0.96748,3.55636,0.22586,1713,28.4872,R3_battery-1,Batch-4
115,1.967,0.999492,3.59683,0.263349,3541,25.2524,R3_battery-1,Batch-4
142,1.894,0.962398,3.55111,0.227061,1705,28.3357,R3_battery-1,Batch-4
169,1.964,0.997967,3.59659,0.264402,3535,26.1858,R3_battery-1,Batch-4
196,1.889,0.959858,3.55014,0.22746,1700,29.1585,R3_battery-1,Batch-4
223,1.954,0.992886,3.59233,0.266392,3517,26.0725,R3_battery-1,Batch-4
250,1.851,0.940549,3.53325,0.225689,1666,26.4493,R3_battery-1,Batch-4
277,1.913,0.972053,3.57017,0.271751,3443,22.1106,R3_battery-1,Batch-4
304,1.811,0.920224,3.5179,0.223041,1630,24.2564,R3_battery-1,Batch-4
331,1.89,0.960366,3.55947,0.274592,3402,21.0018,R3_battery-1,Batch-4
358,1.793,0.911077,3.51357,0.222576,1614,24.3683,R3_battery-1,Batch-4
385,1.884,0.957317,3.55913,0.27581,3393,21.8411,R3_battery-1,Batch-4
412,1.786,0.90752,3.51431,0.223055,1607,25.1081,R3_battery-1,Batch-4
439,1.877,0.95376,3.5568,0.277527,3379,22.5266,R3_battery-1,Batch-4
466,1.773,0.900915,3.51025,0.222878,1595,25.3526,R3_battery-1,Batch-4
493,1.87,0.950203,3.55412,0.278663,3366,22.9878,R3_battery-1,Batch-4
520,1.76,0.894309,3.50771,0.222626,1584,25.7859,R3_battery-1,Batch-4
547,1.857,0.943598,3.54648,0.280954,3343,22.9859,R3_battery-1,Batch-4
574,1.727,0.877541,3.49696,0.220341,1554,25.3298,R3_battery-1,Batch-4
601,1.829,0.92937,3.53287,0.28487,3292,22.3013,R3_battery-1,Batch-4
628,1.687,0.857215,3.49033,0.21905,1518,25.6034,R3_battery-1,Batch-4
655,1.779,0.903963,3.52371,0.286763,3203,22.6834,R3_battery-1,Batch-4
682,1.614,0.820122,3.47776,0.216527,1453,25.5634,R3_battery-1,Batch-4
709,1.716,0.871951,3.51025,0.289349,3089,22.6257,R3_battery-1,Batch-4
736,1.546,0.785569,3.46674,0.214303,1392,25.8832,R3_battery-1,Batch-4
763,1.647,0.83689,3.49714,0.291083,2966,22.6516,R3_battery-1,Batch-4
790,1.476,0.75,3.45812,0.213128,1328,26.5978,R3_battery-1,Batch-4
18,1.896,0.96146,3.42429,0.199452,683,36.4381,R3_battery-2,Batch-4
45,1.934,0.98073,3.62624,0.228876,3480,26.516,R3_battery-2,Batch-4
72,1.91,0.96856,3.41134,0.197755,688,35.5537,R3_battery-2,Batch-4
99,1.926,0.976673,3.61904,0.231619,3467,25.3841,R3_battery-2,Batch-4
126,1.897,0.961968,3.40391,0.195455,683,35.2836,R3_battery-2,Batch-4
153,1.918,0.972617,3.61665,0.232878,3452,25.6423,R3_battery-2,Batch-4
180,1.892,0.959432,3.4051,0.197272,681,36.4885,R3_battery-2,Batch-4
207,1.913,0.970081,3.61498,0.233475,3444,26.1578,R3_battery-2,Batch-4
234,1.871,0.948783,3.3915,0.190333,673,35.1437,R3_battery-2,Batch-4
261,1.866,0.946247,3.59906,0.234527,3357,22.3863,R3_battery-2,Batch-4
288,1.828,0.926978,3.3678,0.177025,658,31.911,R3_battery-2,Batch-4
315,1.839,0.932556,3.58974,0.234995,3311,21.1386,R3_battery-2,Batch-4
342,1.805,0.915314,3.36245,0.175701,650,32.0811,R3_battery-2,Batch-4
369,1.821,0.923428,3.58782,0.236267,3278,21.3358,R3_battery-2,Batch-4
396,1.787,0.906187,3.35961,0.175877,644,32.5869,R3_battery-2,Batch-4
423,1.815,0.920385,3.58764,0.23647,3266,22.1246,R3_battery-2,Batch-4
450,1.773,0.899087,3.35705,0.173755,638,33.2735,R3_battery-2,Batch-4
477,1.803,0.9143,3.58635,0.236824,3246,22.8584,R3_battery-2,Batch-4
504,1.753,0.888945,3.35359,0.172736,631,34.1015,R3_battery-2,Batch-4
531,1.779,0.90213,3.58061,0.237873,3203,22.7616,R3_battery-2,Batch-4
558,1.699,0.861562,3.33967,0.167689,612,33.7621,R3_battery-2,Batch-4
585,1.707,0.865619,3.56785,0.238504,3073,22.2697,R3_battery-2,Batch-4
612,1.578,0.800203,3.31236,0.157343,569,33.1181,R3_battery-2,Batch-4
639,1.601,0.811866,3.55605,0.240727,2882,22.1964,R3_battery-2,Batch-4
666,1.452,0.736308,3.28801,0.148778,523,33.5246,R3_battery-2,Batch-4
20,1.975,0.991466,3.6719,0.225647,7109,25.4463,R3_battery-3,Batch-4
47,1.923,0.965361,3.50999,0.216433,1153,30.3367,R3_battery-3,Batch-4
74,1.991,0.999498,3.66412,0.229329,7167,24.7252,R3_battery-3,Batch-4
101,1.916,0.961847,3.50017,0.217311,1150,29.5779,R3_battery-3,Batch-4
128,1.981,0.994478,3.66232,0.231215,7129,24.7021,R3_battery-3,Batch-4
155,1.909,0.958333,3.49887,0.217804,1145,30.4218,R3_battery-3,Batch-4
182,1.973,0.990462,3.66298,0.231904,7101,25.7761,R3_battery-3,Batch-4
209,1.895,0.951305,3.49382,0.216621,1137,30.1146,R3_battery-3,Batch-4
236,1.945,0.976406,3.65694,0.232778,7000,23.5142,R3_battery-3,Batch-4
263,1.848,0.927711,3.47119,0.209294,1109,26.3498,R3_battery-3,Batch-4
290,1.903,0.955321,3.64779,0.233452,6848,20.3153,R3_battery-3,Batch-4
317,1.823,0.915161,3.46383,0.207481,1094,25.8451,R3_battery-3,Batch-4
344,1.882,0.944779,3.64526,0.23473,6773,20.0184,R3_battery-3,Batch-4
371,1.803,0.90512,3.45917,0.20758,1083,26.066,R3_battery-3,Batch-4
398,1.872,0.939759,3.64525,0.235319,6740,20.75,R3_battery-3,Batch-4
425,1.787,0.897088,3.45816,0.208208,1073,26.8226,R3_battery-3,Batch-4
452,1.855,0.931225,3.64283,0.236233,6678,20.9101,R3_battery-3,Batch-4
479,1.76,0.883534,3.45314,0.206608,1056,27.1057,R3_battery-3,Batch-4
506,1.834,0.920683,3.63972,0.236737,6601,21.1679,R3_battery-3,Batch-4
533,1.707,0.856928,3.44249,0.204266,1024,27.1081,R3_battery-3,Batch-4
560,1.762,0.884538,3.63087,0.237123,6343,20.5247,R3_battery-3,Batch-4
587,1.605,0.805723,3.42109,0.198266,964,26.3119,R3_battery-3,Batch-4
614,1.676,0.841365,3.62456,0.237759,6033,20.8267,R3_battery-3,Batch-4
641,1.515,0.760542,3.40779,0.195762,909,27.1478,R3_battery-3,Batch-4
668,1.581,0.793675,3.61573,0.238477,5689,20.4896,R3_battery-3,Batch-4
22,1.885,0.9425,3.56877,0.222974,1697,28.4357,R3_battery-4,Batch-4
49,1.987,0.9935,3.60872,0.259477,3578,25.8906,R3_battery-4,Batch-4
76,1.911,0.9555,3.55677,0.22811,1721,27.9012,R3_battery-4,Batch-4
103,1.989,0.9945,3.60003,0.264043,3580,25.2379,R3_battery-4,Batch-4
130,1.901,0.9505,3.55148,0.229476,1711,27.7295,R3_battery-4,Batch-4
157,1.983,0.9915,3.59844,0.265604,3570,25.8901,R3_battery-4,Batch-4
184,1.895,0.9475,3.54897,0.229793,1706,28.114,R3_battery-4,Batch-4
211,1.972,0.986,3.59493,0.266339,3549,25.7982,R3_battery-4,Batch-4
238,1.86,0.93,3.5346,0.228164,1674,25.7841,R3_battery-4,Batch-4
265,1.929,0.9645,3.5729,0.27155,3472,21.663,R3_battery-4,Batch-4
292,1.813,0.9065,3.51688,0.226221,1632,23.0477,R3_battery-4,Batch-4
319,1.903,0.9515,3.56237,0.274435,3425,20.5014,R3_battery-4,Batch-4
346,1.794,0.897,3.51056,0.225755,1614,22.856,R3_battery-4,Batch-4
373,1.894,0.947,3.56246,0.273748,3409,21.3334,R3_battery-4,Batch-4
400,1.79,0.895,3.51395,0.22691,1611,24.1733,R3_battery-4,Batch-4
427,1.888,0.944,3.56318,0.274779,3399,22.3723,R3_battery-4,Batch-4
454,1.774,0.887,3.50987,0.226255,1597,24.3877,R3_battery-4,Batch-4
481,1.879,0.9395,3.55942,0.276827,3383,22.6282,R3_battery-4,Batch-4
508,1.762,0.881,3.50786,0.225932,1586,25.1187,R3_battery-4,Batch-4
535,1.862,0.931,3.55005,0.279633,3351,22.3663,R3_battery-4,Batch-4
562,1.72,0.86,3.49271,0.223599,1548,23.8932,R3_battery-4,Batch-4
589,1.826,0.913,3.53731,0.282736,3287,21.9723,R3_battery-4,Batch-4
616,1.656,0.828,3.48361,0.222226,1491,24.2245,R3_battery-4,Batch-4
643,1.745,0.8725,3.52278,0.285255,3142,22.0526,R3_battery-4,Batch-4
670,1.553,0.7765,3.46517,0.21867,1397,23.8935,R3_battery-4,Batch-4
697,1.649,0.8245,3.50599,0.288561,2969,21.8012,R3_battery-4,Batch-4
724,1.459,0.7295,3.45394,0.218145,1314,24.6539,R3_battery-4,Batch-4
24,1.895,0.963886,3.42114,0.198043,682,35.3331,R3_battery-5,Batch-4
51,1.929,0.98118,3.62498,0.228842,3473,25.8125,R3_battery-5,Batch-4
78,1.901,0.966938,3.40939,0.198409,684,35.1238,R3_battery-5,Batch-4
105,1.919,0.976094,3.61937,0.231423,3455,25.1304,R3_battery-5,Batch-4
132,1.887,0.959817,3.40234,0.197087,680,34.8612,R3_battery-5,Batch-4
159,1.913,0.973042,3.61836,0.232687,3444,25.8587,R3_battery-5,Batch-4
186,1.879,0.955748,3.40253,0.196105,677,35.9416,R3_battery-5,Batch-4
213,1.901,0.966938,3.61525,0.233533,3423,25.6958,R3_battery-5,Batch-4
240,1.854,0.943032,3.38586,0.187626,668,34.1495,R3_battery-5,Batch-4
267,1.851,0.941506,3.59851,0.234028,3333,21.7176,R3_battery-5,Batch-4
294,1.814,0.922686,3.36507,0.176428,654,31.4096,R3_battery-5,Batch-4
321,1.826,0.928789,3.59193,0.23508,3287,20.9786,R3_battery-5,Batch-4
348,1.792,0.911495,3.36018,0.174031,645,31.5195,R3_battery-5,Batch-4
375,1.814,0.922686,3.59045,0.235421,3265,21.331,R3_battery-5,Batch-4
402,1.778,0.904374,3.35859,0.17498,641,32.2546,R3_battery-5,Batch-4
429,1.804,0.917599,3.59028,0.235837,3248,22.026,R3_battery-5,Batch-4
456,1.76,0.895219,3.35596,0.174161,633,32.7264,R3_battery-5,Batch-4
483,1.791,0.910987,3.58728,0.236297,3224,22.2544,R3_battery-5,Batch-4
510,1.74,0.885046,3.35002,0.172728,627,33.0814,R3_battery-5,Batch-4
537,1.775,0.902848,3.58395,0.236815,3195,22.5283,R3_battery-5,Batch-4
564,1.714,0.871821,3.33966,0.164845,617,32.6849,R3_battery-5,Batch-4
591,1.738,0.884028,3.57312,0.237522,3129,21.6694,R3_battery-5,Batch-4
618,1.662,0.845371,3.32839,0.16165,599,32.8383,R3_battery-5,Batch-4
645,1.689,0.859105,3.56686,0.237934,3042,21.9864,R3_battery-5,Batch-4
672,1.571,0.799084,3.31045,0.156754,566,33.0456,R3_battery-5,Batch-4
699,1.597,0.812309,3.55403,0.23836,2874,21.6872,R3_battery-5,Batch-4
726,1.448,0.736521,3.28553,0.148827,522,32.2708,R3_battery-5,Batch-4
14,1.934,0.983223,3.67291,0.223981,6963,25.446,R3_battery-6,Batch-4
41,1.895,0.963396,3.50528,0.220611,1137,30.5881,R3_battery-6,Batch-4
68,1.965,0.998983,3.66331,0.229653,7076,24.683,R3_battery-6,Batch-4
95,1.896,0.963904,3.49535,0.221729,1138,29.8536,R3_battery-6,Batch-4
122,1.954,0.993391,3.66018,0.231122,7038,24.253,R3_battery-6,Batch-4
149,1.888,0.959837,3.49094,0.222003,1134,30.0963,R3_battery-6,Batch-4
176,1.953,0.992883,3.66096,0.232081,7033,25.6474,R3_battery-6,Batch-4
203,1.88,0.95577,3.48734,0.221143,1128,30.5079,R3_battery-6,Batch-4
230,1.931,0.981698,3.65568,0.233035,6954,24.0055,R3_battery-6,Batch-4
257,1.829,0.929842,3.46467,0.214436,1097,26.8882,R3_battery-6,Batch-4
284,1.884,0.957804,3.64401,0.234499,6783,20.0964,R3_battery-6,Batch-4
311,1.792,0.911032,3.45042,0.212162,1076,25.401,R3_battery-6,Batch-4
[...]
807,1.601,0.814758,3.65831,0.204751,4320,20.7576,Sim_satellite_battery-8,Batch-6
808,1.601,0.814758,3.6582,0.2048,4321,20.767,Sim_satellite_battery-8,Batch-6
809,1.601,0.814758,3.65776,0.204913,4320,20.7122,Sim_satellite_battery-8,Batch-6
810,1.839,0.935878,3.61554,0.266667,6619,20.579,Sim_satellite_battery-8,Batch-6
811,1.601,0.814758,3.65955,0.204672,4321,20.875,Sim_satellite_battery-8,Batch-6
812,1.601,0.814758,3.6588,0.204669,4320,20.8899,Sim_satellite_battery-8,Batch-6
813,1.601,0.814758,3.65907,0.204698,4320,20.9925,Sim_satellite_battery-8,Batch-6
814,1.579,0.803562,3.66272,0.203039,4260,20.9151,Sim_satellite_battery-8,Batch-6
815,1.837,0.93486,3.61462,0.266889,6615,20.4207,Sim_satellite_battery-8,Batch-6
816,1.556,0.791858,3.66749,0.201113,4200,20.7887,Sim_satellite_battery-8,Batch-6
817,1.534,0.780662,3.67079,0.199378,4140,20.758,Sim_satellite_battery-8,Batch-6
818,1.512,0.769466,3.67441,0.197856,4080,20.7099,Sim_satellite_battery-8,Batch-6
819,1.423,0.724173,3.69083,0.191517,3840,20.6469,Sim_satellite_battery-8,Batch-6
820,1.379,0.701781,3.69918,0.188325,3720,20.6582,Sim_satellite_battery-8,Batch-6
821,1.837,0.93486,3.61616,0.26601,6615,20.8358,Sim_satellite_battery-8,Batch-6
822,1.334,0.67888,3.71059,0.1854,3600,21.0017,Sim_satellite_battery-8,Batch-6
823,1.29,0.656489,3.71868,0.182532,3480,20.9869,Sim_satellite_battery-8,Batch-6
824,1.245,0.633588,3.72724,0.17979,3360,20.9649,Sim_satellite_battery-8,Batch-6
825,1.201,0.611196,3.73573,0.176499,3240,20.9218,Sim_satellite_battery-8,Batch-6
826,1.112,0.565903,3.75419,0.169828,3000,20.9053,Sim_satellite_battery-8,Batch-6
827,1.836,0.934351,3.61491,0.266747,6610,20.6915,Sim_satellite_battery-8,Batch-6
828,1.023,0.520611,3.77463,0.162639,2760,20.7857,Sim_satellite_battery-8,Batch-6
829,0.912,0.464122,3.80091,0.151657,2460,20.741,Sim_satellite_battery-8,Batch-6
830,0.756,0.384733,3.84168,0.132463,2040,20.7176,Sim_satellite_battery-8,Batch-6
831,0.445,0.226463,3.93335,0.0856406,1200,20.5397,Sim_satellite_battery-8,Batch-6
832,0.111,0.0564885,4.04759,0.0314012,300,20.0643,Sim_satellite_battery-8,Batch-6
833,1.841,0.936896,3.61407,0.266722,6629,20.4536,Sim_satellite_battery-8,Batch-6
834,0.111,0.0564885,4.04941,0.0313459,301,20.0418,Sim_satellite_battery-8,Batch-6
835,0.445,0.226463,3.93529,0.0850718,1200,20.4127,Sim_satellite_battery-8,Batch-6
836,0.756,0.384733,3.84069,0.132276,2040,20.5195,Sim_satellite_battery-8,Batch-6
837,0.912,0.464122,3.79936,0.151303,2460,20.6165,Sim_satellite_battery-8,Batch-6
838,1.023,0.520611,3.77195,0.162225,2760,20.564,Sim_satellite_battery-8,Batch-6
839,1.833,0.932824,3.61248,0.267246,6599,20.1632,Sim_satellite_battery-8,Batch-6
840,1.112,0.565903,3.75186,0.169812,2998,20.3685,Sim_satellite_battery-8,Batch-6
841,1.201,0.611196,3.73208,0.177214,3240,20.1652,Sim_satellite_battery-8,Batch-6
842,1.245,0.633588,3.72225,0.17975,3360,20.1998,Sim_satellite_battery-8,Batch-6
843,1.29,0.656489,3.71407,0.182293,3480,20.4653,Sim_satellite_battery-8,Batch-6
844,1.334,0.67888,3.70513,0.185602,3600,20.4249,Sim_satellite_battery-8,Batch-6
845,1.83,0.931298,3.61188,0.267795,6588,20.168,Sim_satellite_battery-8,Batch-6
846,1.379,0.701781,3.69707,0.188593,3720,20.316,Sim_satellite_battery-8,Batch-6
847,1.423,0.724173,3.68756,0.191821,3840,20.2618,Sim_satellite_battery-8,Batch-6
848,1.512,0.769466,3.66887,0.198771,4080,20.0874,Sim_satellite_battery-8,Batch-6
849,1.534,0.780662,3.66312,0.200112,4140,19.9376,Sim_satellite_battery-8,Batch-6
850,1.556,0.791858,3.66114,0.201626,4200,20.3825,Sim_satellite_battery-8,Batch-6
851,1.828,0.93028,3.61226,0.267691,6582,20.2701,Sim_satellite_battery-8,Batch-6
852,1.579,0.803562,3.6588,0.203377,4260,20.5482,Sim_satellite_battery-8,Batch-6
853,1.601,0.814758,3.65355,0.205731,4320,20.5411,Sim_satellite_battery-8,Batch-6
854,1.601,0.814758,3.653,0.205889,4320,20.5464,Sim_satellite_battery-8,Batch-6
855,1.601,0.814758,3.65269,0.206038,4320,20.5487,Sim_satellite_battery-8,Batch-6
856,1.827,0.929771,3.61206,0.267655,6578,20.2681,Sim_satellite_battery-8,Batch-6
857,1.601,0.814758,3.65364,0.205818,4320,20.5347,Sim_satellite_battery-8,Batch-6
858,1.601,0.814758,3.65276,0.206017,4320,20.5357,Sim_satellite_battery-8,Batch-6
859,1.601,0.814758,3.65308,0.205786,4321,20.6617,Sim_satellite_battery-8,Batch-6
860,1.601,0.814758,3.65278,0.206223,4320,20.6604,Sim_satellite_battery-8,Batch-6
861,1.601,0.814758,3.65308,0.205955,4320,20.751,Sim_satellite_battery-8,Batch-6
862,1.828,0.93028,3.61353,0.267484,6581,20.7233,Sim_satellite_battery-8,Batch-6
863,1.601,0.814758,3.6549,0.205996,4320,20.8909,Sim_satellite_battery-8,Batch-6
864,1.601,0.814758,3.65387,0.20606,4320,20.8447,Sim_satellite_battery-8,Batch-6
865,1.601,0.814758,3.65314,0.206244,4320,20.8107,Sim_satellite_battery-8,Batch-6
866,1.579,0.803562,3.65697,0.204161,4260,20.7811,Sim_satellite_battery-8,Batch-6
867,1.825,0.928753,3.61189,0.26789,6571,20.4147,Sim_satellite_battery-8,Batch-6
868,1.556,0.791858,3.66209,0.202085,4200,20.7198,Sim_satellite_battery-8,Batch-6
869,1.534,0.780662,3.6656,0.20039,4140,20.7039,Sim_satellite_battery-8,Batch-6
870,1.512,0.769466,3.66989,0.198696,4080,20.768,Sim_satellite_battery-8,Batch-6
871,1.423,0.724173,3.68763,0.191797,3840,20.9649,Sim_satellite_battery-8,Batch-6
872,1.379,0.701781,3.69719,0.189001,3720,21.1865,Sim_satellite_battery-8,Batch-6
873,1.826,0.929262,3.614,0.267156,6575,21.0243,Sim_satellite_battery-8,Batch-6
874,1.334,0.67888,3.70827,0.186103,3600,21.4679,Sim_satellite_battery-8,Batch-6
875,1.29,0.656489,3.71666,0.183102,3480,21.4744,Sim_satellite_battery-8,Batch-6
876,1.245,0.633588,3.72559,0.18008,3360,21.545,Sim_satellite_battery-8,Batch-6
877,1.201,0.611196,3.7345,0.176917,3240,21.6143,Sim_satellite_battery-8,Batch-6
878,1.112,0.565903,3.75338,0.17026,3000,21.666,Sim_satellite_battery-8,Batch-6
879,1.827,0.929771,3.61571,0.266656,6579,21.4934,Sim_satellite_battery-8,Batch-6
880,1.023,0.520611,3.77514,0.163053,2760,21.8698,Sim_satellite_battery-8,Batch-6
881,0.912,0.464122,3.80162,0.151998,2460,21.7899,Sim_satellite_battery-8,Batch-6
882,0.756,0.384733,3.8425,0.132969,2040,21.8202,Sim_satellite_battery-8,Batch-6
883,0.445,0.226463,3.93527,0.086002,1200,21.6982,Sim_satellite_battery-8,Batch-6
884,0.111,0.0564885,4.05031,0.0312567,300,21.2897,Sim_satellite_battery-8,Batch-6
885,1.835,0.933842,3.61742,0.265796,6607,21.6985,Sim_satellite_battery-8,Batch-6
886,0.111,0.0564885,4.05291,0.0310103,300,21.5368,Sim_satellite_battery-8,Batch-6
887,0.445,0.226463,3.93881,0.0853487,1200,21.9907,Sim_satellite_battery-8,Batch-6
888,0.756,0.384733,3.8437,0.132753,2040,21.9212,Sim_satellite_battery-8,Batch-6
889,0.912,0.464122,3.80195,0.151599,2460,21.9873,Sim_satellite_battery-8,Batch-6
890,1.023,0.520611,3.77512,0.16249,2760,22.0311,Sim_satellite_battery-8,Batch-6
891,1.829,0.930789,3.61779,0.265391,6584,21.9282,Sim_satellite_battery-8,Batch-6
892,1.112,0.565903,3.75662,0.170456,3000,22.2708,Sim_satellite_battery-8,Batch-6
893,1.201,0.611196,3.73753,0.176898,3240,22.1876,Sim_satellite_battery-8,Batch-6
894,1.245,0.633588,3.72807,0.179974,3360,22.2247,Sim_satellite_battery-8,Batch-6
895,1.29,0.656489,3.71893,0.182988,3480,22.2485,Sim_satellite_battery-8,Batch-6
896,1.334,0.67888,3.71008,0.185895,3600,22.3181,Sim_satellite_battery-8,Batch-6
897,1.827,0.929771,3.61814,0.265979,6576,22.1107,Sim_satellite_battery-8,Batch-6
898,1.379,0.701781,3.70313,0.188935,3720,22.5116,Sim_satellite_battery-8,Batch-6
899,1.423,0.724173,3.69405,0.191865,3840,22.4393,Sim_satellite_battery-8,Batch-6
900,1.512,0.769466,3.6752,0.198367,4080,22.201,Sim_satellite_battery-8,Batch-6
901,1.534,0.780662,3.67081,0.200144,4140,22.2583,Sim_satellite_battery-8,Batch-6
902,1.556,0.791858,3.66775,0.201836,4200,22.5758,Sim_satellite_battery-8,Batch-6
903,1.825,0.928753,3.61854,0.265778,6571,22.2497,Sim_satellite_battery-8,Batch-6
904,1.579,0.803562,3.66478,0.203413,4260,22.7199,Sim_satellite_battery-8,Batch-6
905,1.601,0.814758,3.65948,0.205671,4320,22.6149,Sim_satellite_battery-8,Batch-6
906,1.601,0.814758,3.65917,0.205619,4320,22.6988,Sim_satellite_battery-8,Batch-6
907,1.601,0.814758,3.6586,0.205902,4321,22.6595,Sim_satellite_battery-8,Batch-6
908,1.822,0.927226,3.61681,0.266783,6561,21.9535,Sim_satellite_battery-8,Batch-6
909,1.601,0.814758,3.65658,0.205794,4320,22.2018,Sim_satellite_battery-8,Batch-6
910,1.601,0.814758,3.65582,0.206201,4320,22.1282,Sim_satellite_battery-8,Batch-6
911,1.601,0.814758,3.65475,0.206533,4320,22.0674,Sim_satellite_battery-8,Batch-6
912,1.601,0.814758,3.65426,0.206251,4320,22.047,Sim_satellite_battery-8,Batch-6
913,1.601,0.814758,3.65419,0.206649,4320,22.089,Sim_satellite_battery-8,Batch-6
914,1.818,0.925191,3.61478,0.26695,6543,21.6797,Sim_satellite_battery-8,Batch-6
915,1.601,0.814758,3.65381,0.206531,4320,21.9683,Sim_satellite_battery-8,Batch-6
916,1.601,0.814758,3.65246,0.206839,4320,21.8413,Sim_satellite_battery-8,Batch-6
917,1.601,0.814758,3.65123,0.207011,4320,21.7652,Sim_satellite_battery-8,Batch-6
918,1.579,0.803562,3.65476,0.205214,4260,21.6522,Sim_satellite_battery-8,Batch-6
919,1.812,0.922137,3.61131,0.268163,6522,21.1434,Sim_satellite_battery-8,Batch-6
920,1.556,0.791858,3.65874,0.202927,4199,21.4715,Sim_satellite_battery-8,Batch-6
921,1.534,0.780662,3.66219,0.201137,4139,21.419,Sim_satellite_battery-8,Batch-6
922,1.512,0.769466,3.66594,0.199457,4079,21.4048,Sim_satellite_battery-8,Batch-6
923,1.423,0.724173,3.68208,0.193012,3839,21.2879,Sim_satellite_battery-8,Batch-6
924,1.379,0.701781,3.68937,0.189928,3719,21.1532,Sim_satellite_battery-8,Batch-6
925,1.804,0.918066,3.60794,0.268988,6494,20.6973,Sim_satellite_battery-8,Batch-6
926,1.334,0.67888,3.69762,0.186872,3599,20.9158,Sim_satellite_battery-8,Batch-6
927,1.29,0.656489,3.70484,0.183863,3479,20.7555,Sim_satellite_battery-8,Batch-6
928,1.245,0.633588,3.71254,0.180943,3359,20.6078,Sim_satellite_battery-8,Batch-6
929,1.201,0.611196,3.72065,0.177668,3239,20.5187,Sim_satellite_battery-8,Batch-6
930,1.112,0.565903,3.73924,0.171036,3000,20.5112,Sim_satellite_battery-8,Batch-6
931,1.799,0.915522,3.6061,0.269176,6475,20.485,Sim_satellite_battery-8,Batch-6
932,1.023,0.520611,3.76114,0.164078,2760,20.6716,Sim_satellite_battery-8,Batch-6
933,0.912,0.464122,3.78684,0.153108,2460,20.5135,Sim_satellite_battery-8,Batch-6
934,0.756,0.384733,3.82784,0.134441,2039,20.5157,Sim_satellite_battery-8,Batch-6
935,0.445,0.226463,3.92064,0.0872498,1199,20.3858,Sim_satellite_battery-8,Batch-6
936,0.111,0.0564885,4.03829,0.0322483,299,20.1973,Sim_satellite_battery-8,Batch-6
937,1.806,0.919084,3.60687,0.26846,6500,20.4519,Sim_satellite_battery-8,Batch-6
938,0.111,0.0564885,4.04062,0.0319641,300,20.0564,Sim_satellite_battery-8,Batch-6
939,0.445,0.226463,3.92433,0.0866276,1200,20.6928,Sim_satellite_battery-8,Batch-6
940,0.756,0.384733,3.8282,0.133978,2039,20.5236,Sim_satellite_battery-8,Batch-6
941,0.912,0.464122,3.78628,0.152573,2459,20.5448,Sim_satellite_battery-8,Batch-6
942,1.023,0.520611,3.75873,0.163365,2759,20.5396,Sim_satellite_battery-8,Batch-6
943,1.795,0.913486,3.60529,0.269,6463,20.3794,Sim_satellite_battery-8,Batch-6
944,1.112,0.565903,3.73942,0.171206,2999,20.6631,Sim_satellite_battery-8,Batch-6
945,1.201,0.611196,3.71968,0.177916,3239,20.5767,Sim_satellite_battery-8,Batch-6
946,1.245,0.633588,3.71038,0.1808,3360,20.7299,Sim_satellite_battery-8,Batch-6
947,1.29,0.656489,3.70287,0.184071,3480,21.0916,Sim_satellite_battery-8,Batch-6
948,1.334,0.67888,3.69387,0.187373,3600,21.1502,Sim_satellite_battery-8,Batch-6
949,1.79,0.910941,3.60628,0.268745,6443,20.7402,Sim_satellite_battery-8,Batch-6
950,1.379,0.701781,3.685,0.190717,3719,20.9616,Sim_satellite_battery-8,Batch-6
951,1.423,0.724173,3.67985,0.195056,3839,20.858,Sim_satellite_battery-8,Batch-6
952,1.512,0.769466,3.658,0.200831,4079,20.9059,Sim_satellite_battery-8,Batch-6
953,1.534,0.780662,3.65245,0.202979,4140,20.9336,Sim_satellite_battery-8,Batch-6
954,1.556,0.791858,3.64718,0.205427,4200,20.9615,Sim_satellite_battery-8,Batch-6
955,1.785,0.908397,3.60531,0.269072,6427,20.6283,Sim_satellite_battery-8,Batch-6
956,1.579,0.803562,3.64312,0.208068,4259,20.9318,Sim_satellite_battery-8,Batch-6
957,1.601,0.814758,3.63633,0.211145,4320,20.9401,Sim_satellite_battery-8,Batch-6
958,1.601,0.814758,3.63574,0.211577,4320,20.9553,Sim_satellite_battery-8,Batch-6
959,1.601,0.814758,3.63481,0.211988,4320,20.941,Sim_satellite_battery-8,Batch-6
960,1.776,0.903817,3.60423,0.269698,6395,20.6164,Sim_satellite_battery-8,Batch-6
961,1.601,0.814758,3.63588,0.212371,4320,20.9355,Sim_satellite_battery-8,Batch-6
962,1.601,0.814758,3.63318,0.212487,4320,20.8933,Sim_satellite_battery-8,Batch-6
963,1.601,0.814758,3.63261,0.212993,4320,20.9349,Sim_satellite_battery-8,Batch-6
964,1.601,0.814758,3.63205,0.213345,4320,20.9741,Sim_satellite_battery-8,Batch-6
965,1.601,0.814758,3.63143,0.213735,4320,20.9826,Sim_satellite_battery-8,Batch-6
966,1.765,0.898219,3.60298,0.269855,6354,20.6368,Sim_satellite_battery-8,Batch-6
967,1.601,0.814758,3.6333,0.21419,4320,20.9961,Sim_satellite_battery-8,Batch-6
968,1.601,0.814758,3.62928,0.214262,4320,20.9323,Sim_satellite_battery-8,Batch-6
969,1.601,0.814758,3.6286,0.215027,4320,20.9048,Sim_satellite_battery-8,Batch-6
970,1.579,0.803562,3.63287,0.212108,4260,20.8752,Sim_satellite_battery-8,Batch-6
971,1.756,0.893639,3.60167,0.269998,6321,20.5774,Sim_satellite_battery-8,Batch-6
972,1.556,0.791858,3.64218,0.209138,4199,21.2256,Sim_satellite_battery-8,Batch-6
973,1.534,0.780662,3.64378,0.206464,4140,21.2458,Sim_satellite_battery-8,Batch-6
974,1.512,0.769466,3.64767,0.204498,4079,21.2135,Sim_satellite_battery-8,Batch-6
975,1.423,0.724173,3.66564,0.196863,3839,21.2447,Sim_satellite_battery-8,Batch-6
976,1.379,0.701781,3.67382,0.193631,3719,21.2504,Sim_satellite_battery-8,Batch-6
977,1.746,0.88855,3.60179,0.270345,6285,20.8939,Sim_satellite_battery-8,Batch-6
978,1.334,0.67888,3.68486,0.191797,3599,21.032,Sim_satellite_battery-8,Batch-6
979,1.29,0.656489,3.68848,0.187323,3480,20.8157,Sim_satellite_battery-8,Batch-6
980,1.245,0.633588,3.69643,0.18424,3360,20.7398,Sim_satellite_battery-8,Batch-6
981,1.201,0.611196,3.70454,0.181092,3239,20.62,Sim_satellite_battery-8,Batch-6
982,1.112,0.565903,3.72274,0.174408,3000,20.5192,Sim_satellite_battery-8,Batch-6
983,1.734,0.882443,3.59726,0.271354,6241,20.303,Sim_satellite_battery-8,Batch-6
984,1.023,0.520611,3.74796,0.168525,2759,20.7321,Sim_satellite_battery-8,Batch-6
985,0.912,0.464122,3.77081,0.156296,2459,20.6203,Sim_satellite_battery-8,Batch-6
986,0.756,0.384733,3.81283,0.137939,2039,20.6927,Sim_satellite_battery-8,Batch-6
987,0.445,0.226463,3.90818,0.0903575,1199,20.4715,Sim_satellite_battery-8,Batch-6
988,0.111,0.0564885,4.02921,0.0337918,299,19.9786,Sim_satellite_battery-8,Batch-6
989,1.739,0.884987,3.59878,0.270785,6259,20.4661,Sim_satellite_battery-8,Batch-6
990,0.111,0.0564885,4.03761,0.0337658,299,20.6203,Sim_satellite_battery-8,Batch-6
991,0.445,0.226463,3.91035,0.0894106,1200,20.4052,Sim_satellite_battery-8,Batch-6
992,0.756,0.384733,3.81173,0.137531,2039,20.5416,Sim_satellite_battery-8,Batch-6
993,0.912,0.464122,3.76844,0.156313,2460,20.4669,Sim_satellite_battery-8,Batch-6
994,1.023,0.520611,3.74046,0.167154,2760,20.4357,Sim_satellite_battery-8,Batch-6
995,1.724,0.877354,3.59671,0.270872,6205,20.2538,Sim_satellite_battery-8,Batch-6
996,1.112,0.565903,3.7242,0.176416,2999,20.5801,Sim_satellite_battery-8,Batch-6
997,1.201,0.611196,3.69976,0.18174,3240,20.42,Sim_satellite_battery-8,Batch-6
998,1.245,0.633588,3.68923,0.185299,3359,20.4094,Sim_satellite_battery-8,Batch-6
999,1.29,0.656489,3.67952,0.188665,3480,20.4852,Sim_satellite_battery-8,Batch-6
1000,1.334,0.67888,3.66994,0.192412,3599,20.5374,Sim_satellite_battery-8,Batch-6
1001,1.709,0.86972,3.59357,0.272267,6151,19.9285,Sim_satellite_battery-8,Batch-6
1002,1.379,0.701781,3.66247,0.197001,3720,20.3409,Sim_satellite_battery-8,Batch-6
1003,1.423,0.724173,3.65037,0.199949,3840,20.5863,Sim_satellite_battery-8,Batch-6
1004,1.512,0.769466,3.63088,0.209864,4080,20.8274,Sim_satellite_battery-8,Batch-6
1005,1.534,0.780662,3.62516,0.213947,4140,20.8495,Sim_satellite_battery-8,Batch-6
1006,1.556,0.791858,3.61868,0.218353,4200,20.8806,Sim_satellite_battery-8,Batch-6
1007,1.698,0.864122,3.59586,0.271782,6111,20.5103,Sim_satellite_battery-8,Batch-6
1008,1.579,0.803562,3.61601,0.223249,4260,20.9903,Sim_satellite_battery-8,Batch-6
1009,1.601,0.814758,3.6036,0.23009,4321,20.9733,Sim_satellite_battery-8,Batch-6
1010,1.601,0.814758,3.60406,0.230912,4320,21.0696,Sim_satellite_battery-8,Batch-6
1011,1.601,0.814758,3.60362,0.231115,4320,21.2658,Sim_satellite_battery-8,Batch-6
1012,1.688,0.859033,3.59766,0.271229,6077,20.9965,Sim_satellite_battery-8,Batch-6
1013,1.601,0.814758,3.60826,0.230848,4320,21.5043,Sim_satellite_battery-8,Batch-6
1014,1.601,0.814758,3.60268,0.23235,4320,21.4966,Sim_satellite_battery-8,Batch-6
1015,1.601,0.814758,3.60269,0.23322,4320,21.5874,Sim_satellite_battery-8,Batch-6
1016,1.601,0.814758,3.6014,0.234473,4320,21.6342,Sim_satellite_battery-8,Batch-6
1017,1.601,0.814758,3.60032,0.235837,4321,21.6515,Sim_satellite_battery-8,Batch-6
1018,1.674,0.851908,3.59755,0.27123,6026,21.2204,Sim_satellite_battery-8,Batch-6
1019,1.601,0.814758,3.60307,0.235358,4320,21.7217,Sim_satellite_battery-8,Batch-6
1020,1.601,0.814758,3.59682,0.237875,4320,21.6674,Sim_satellite_battery-8,Batch-6
1021,1.601,0.814758,3.59749,0.238423,4320,21.8029,Sim_satellite_battery-8,Batch-6
1022,1.579,0.803562,3.60423,0.231782,4260,21.8908,Sim_satellite_battery-8,Batch-6
1023,1.661,0.845293,3.59763,0.271125,5979,21.4184,Sim_satellite_battery-8,Batch-6
1024,1.556,0.791858,3.61137,0.22629,4200,21.8236,Sim_satellite_battery-8,Batch-6
1025,1.534,0.780662,3.61388,0.221933,4139,21.7406,Sim_satellite_battery-8,Batch-6
1026,1.512,0.769466,3.61849,0.218285,4080,21.7153,Sim_satellite_battery-8,Batch-6
1027,1.423,0.724173,3.63911,0.206129,3840,21.6188,Sim_satellite_battery-8,Batch-6
1028,1.379,0.701781,3.64777,0.201733,3720,21.5792,Sim_satellite_battery-8,Batch-6
1029,1.643,0.836132,3.59416,0.272445,5915,21.171,Sim_satellite_battery-8,Batch-6
1030,1.334,0.67888,3.65884,0.198852,3599,21.442,Sim_satellite_battery-8,Batch-6
1031,1.29,0.656489,3.66573,0.193824,3480,21.54,Sim_satellite_battery-8,Batch-6
1032,1.245,0.633588,3.67511,0.19073,3360,21.6098,Sim_satellite_battery-8,Batch-6
1033,1.201,0.611196,3.68463,0.18744,3240,21.6699,Sim_satellite_battery-8,Batch-6
1034,1.112,0.565903,3.70331,0.180587,2999,21.5487,Sim_satellite_battery-8,Batch-6
1035,1.629,0.829008,3.59401,0.272075,5865,21.2931,Sim_satellite_battery-8,Batch-6
1036,1.023,0.520611,3.72825,0.174822,2759,21.6059,Sim_satellite_battery-8,Batch-6
1037,0.912,0.464122,3.75075,0.162509,2460,21.3959,Sim_satellite_battery-8,Batch-6
1038,0.756,0.384733,3.79324,0.144442,2039,21.318,Sim_satellite_battery-8,Batch-6
1039,0.445,0.226463,3.89356,0.0952782,1199,21.1744,Sim_satellite_battery-8,Batch-6
1040,0.111,0.0564885,4.0212,0.0358897,299,20.6445,Sim_satellite_battery-8,Batch-6
1041,1.63,0.829517,3.59372,0.27166,5870,21.1096,Sim_satellite_battery-8,Batch-6
1042,0.111,0.0564885,4.02826,0.0360147,300,21.2488,Sim_satellite_battery-8,Batch-6
1043,0.445,0.226463,3.89506,0.0943215,1199,21.0711,Sim_satellite_battery-8,Batch-6
1044,0.756,0.384733,3.79158,0.144243,2040,21.1259,Sim_satellite_battery-8,Batch-6
1045,0.912,0.464122,3.74762,0.162911,2459,21.1466,Sim_satellite_battery-8,Batch-6
1046,1.023,0.520611,3.71846,0.173603,2760,21.1079,Sim_satellite_battery-8,Batch-6
1047,1.613,0.820865,3.59064,0.272806,5806,20.8168,Sim_satellite_battery-8,Batch-6
1048,1.112,0.565903,3.69695,0.181975,3000,21.0299,Sim_satellite_battery-8,Batch-6
1049,1.201,0.611196,3.67492,0.189371,3240,20.9727,Sim_satellite_battery-8,Batch-6
1050,1.245,0.633588,3.66105,0.192437,3360,20.6441,Sim_satellite_battery-8,Batch-6
1051,1.29,0.656489,3.65241,0.197298,3479,20.9937,Sim_satellite_battery-8,Batch-6
1052,1.334,0.67888,3.64124,0.202105,3600,21.022,Sim_satellite_battery-8,Batch-6
1053,1.593,0.810687,3.58911,0.272893,5735,20.6919,Sim_satellite_battery-8,Batch-6